# Date: Wed Nov 8 16:12:40 2023
# LED: 1
#Wavelength	#Inital reflectance [%]	#Final reflectance [%]
91.0096	0	0
91.2522	0	0
91.4948	0	0
91.7374	0	0
91.98	0	0
92.2226	0	0
92.4651	0	0
92.7076	0	0
92.9501	0	0
93.1925	0	0
93.4349	0	0
93.6773	0	0
93.9197	0	0
94.1621	0	0
94.4044	0	0
94.6467	0	0
94.889	0	0
95.1312	0	0
95.3734	0	0
95.6156	0	0
95.8578	0	0
96.0999	0	0
96.3421	0	0
96.5842	0	0
96.8262	0	0
97.0683	0	0
97.3103	0	0
97.5523	0	0
97.7943	0	0
98.0362	0	0
98.2782	0	0
98.5201	0	0
98.7619	0	0
99.0038	0	0
99.2456	0	0
99.4874	0	0
99.7292	0	0
99.9709	0	0
100.213	0	0
100.454	0	0
100.696	0	0
100.938	0	0
101.179	0	0
101.421	0	0
101.662	0	0
101.904	0	0
102.146	0	0
102.387	0	0
102.629	0	0
102.87	0	0
103.111	0	0
103.353	0	0
103.594	0	0
103.835	0	0
104.077	0	0
104.318	0	0
104.559	0	0
104.801	0	0
105.042	0	0
105.283	0	0
105.524	0	0
105.765	0	0
106.006	0	0
106.248	0	0
106.489	0	0
106.73	0	0
106.971	0	0
107.212	0	0
107.453	0	0
107.694	0	0
107.935	0	0
108.175	0	0
108.416	0	0
108.657	0	0
108.898	0	0
109.139	0	0
109.38	0	0
109.62	0	0
109.861	0	0
110.102	0	0
110.342	0	0
110.583	0	0
110.824	0	0
111.064	0	0
111.305	0	0
111.545	0	0
111.786	0	0
112.026	0	0
112.267	0	0
112.507	0	0
112.748	0	0
112.988	0	0
113.228	0	0
113.469	0	0
113.709	0	0
113.949	0	0
114.19	0	0
114.43	0	0
114.67	0	0
114.91	0	0
115.151	0	0
115.391	0	0
115.631	0	0
115.871	0	0
116.111	0	0
116.351	0	0
116.591	0	0
116.831	0	0
117.071	0	0
117.311	0	0
117.551	0	0
117.791	0	0
118.031	0	0
118.27	0	0
118.51	0	0
118.75	0	0
118.99	0	0
119.23	0	0
119.469	0	0
119.709	0	0
119.949	0	0
120.188	0	0
120.428	0	0
120.667	0	0
120.907	0	0
121.147	0	0
121.386	0	0
121.626	0	0
121.865	0	0
122.104	0	0
122.344	0	0
122.583	0	0
122.823	0	0
123.062	0	0
123.301	0	0
123.541	0	0
123.78	0	0
124.019	0	0
124.258	0	0
124.498	0	0
124.737	0	0
124.976	0	0
125.215	0	0
125.454	0	0
125.693	0	0
125.932	0	0
126.171	0	0
126.41	0	0
126.649	0	0
126.888	0	0
127.127	0	0
127.366	0	0
127.605	0	0
127.844	0	0
128.082	0	0
128.321	0	0
128.56	0	0
128.799	0	0
129.037	0	0
129.276	0	0
129.515	0	0
129.753	0	0
129.992	0	0
130.231	0	0
130.469	0	0
130.708	0	0
130.946	0	0
131.185	0	0
131.423	0	0
131.662	0	0
131.9	0	0
132.138	0	0
132.377	0	0
132.615	0	0
132.853	0	0
133.092	0	0
133.33	0	0
133.568	0	0
133.806	0	0
134.045	0	0
134.283	0	0
134.521	0	0
134.759	0	0
134.997	0	0
135.235	0	0
135.473	0	0
135.711	0	0
135.949	0	0
136.187	0	0
136.425	0	0
136.663	0	0
136.901	0	0
137.139	0	0
137.377	0	0
137.614	0	0
137.852	0	0
138.09	0	0
138.328	0	0
138.565	0	0
138.803	0	0
139.041	0	0
139.278	0	0
139.516	0	0
139.754	0	0
139.991	0	0
140.229	0	0
140.466	0	0
140.704	0	0
140.941	0	0
141.179	0	0
141.416	0	0
141.653	0	0
141.891	0	0
142.128	0	0
142.365	0	0
142.603	0	0
142.84	0	0
143.077	0	0
143.314	0	0
143.552	0	0
143.789	0	0
144.026	0	0
144.263	0	0
144.5	0	0
144.737	0	0
144.974	0	0
145.211	0	0
145.448	0	0
145.685	0	0
145.922	0	0
146.159	0	0
146.396	0	0
146.633	0	0
146.869	0	0
147.106	0	0
147.343	0	0
147.58	0	0
147.817	0	0
148.053	0	0
148.29	0	0
148.527	0	0
148.763	0	0
149	0	0
149.236	0	0
149.473	0	0
149.71	0	0
149.946	0	0
150.182	0	0
150.419	0	0
150.655	0	0
150.892	0	0
151.128	0	0
151.365	0	0
151.601	0	0
151.837	0	0
152.073	0	0
152.31	0	0
152.546	0	0
152.782	0	0
153.018	0	0
153.254	0	0
153.491	0	0
153.727	0	0
153.963	0	0
154.199	0	0
154.435	0	0
154.671	0	0
154.907	0	0
155.143	0	0
155.379	0	0
155.615	0	0
155.851	0	0
156.086	0	0
156.322	0	0
156.558	0	0
156.794	0	0
157.03	0	0
157.265	0	0
157.501	0	0
157.737	0	0
157.972	0	0
158.208	0	0
158.444	0	0
158.679	0	0
158.915	0	0
159.15	0	0
159.386	0	0
159.621	0	0
159.857	0	0
160.092	0	0
160.328	0	0
160.563	0	0
160.798	0	0
161.034	0	0
161.269	0	0
161.504	0	0
161.739	0	0
161.975	0	0
162.21	0	0
162.445	0	0
162.68	0	0
162.915	0	0
163.15	0	0
163.385	0	0
163.621	0	0
163.856	0	0
164.091	0	0
164.326	0	0
164.561	0	0
164.795	0	0
165.03	0	0
165.265	0	0
165.5	0	0
165.735	0	0
165.97	0	0
166.204	0	0
166.439	0	0
166.674	0	0
166.909	0	0
167.143	0	0
167.378	0	0
167.613	0	0
167.847	0	0
168.082	0	0
168.316	0	0
168.551	0	0
168.785	0	0
169.02	0	0
169.254	0	0
169.489	0	0
169.723	0	0
169.958	0	0
170.192	0	0
170.426	0	0
170.66	0	0
170.895	0	0
171.129	0	0
171.363	0	0
171.597	0	0
171.832	0	0
172.066	0	0
172.3	0	0
172.534	0	0
172.768	0	0
173.002	0	0
173.236	0	0
173.47	0	0
173.704	0	0
173.938	0	0
174.172	0	0
174.406	0	0
174.64	0	0
174.874	0	0
175.107	0	0
175.341	0	0
175.575	0	0
175.809	0	0
176.042	0	0
176.276	0	0
176.51	0	0
176.743	0	0
176.977	0	0
177.211	0	0
177.444	0	0
177.678	0	0
177.911	0	0
178.145	0	0
178.378	0	0
178.612	0	0
178.845	0	0
179.079	0	0
179.312	0	0
179.545	0	0
179.779	0	0
180.012	0	0
180.245	0	0
180.478	0	0
180.712	0	0
180.945	0	0
181.178	0	0
181.411	0	0
181.644	0	0
181.877	0	0
182.111	0	0
182.344	0	0
182.577	0	0
182.81	0	0
183.043	0	0
183.275	0	0
183.508	0	0
183.741	0	0
183.974	0	0
184.207	0	0
184.44	0	0
184.673	0	0
184.905	0	0
185.138	0	0
185.371	0	0
185.604	0	0
185.836	0	0
186.069	0	0
186.302	0	0
186.534	0	0
186.767	0	0
186.999	0	0
187.232	0	0
187.464	0	0
187.697	0	0
187.929	0	0
188.162	0	0
188.394	0	0
188.626	0	0
188.859	0	0
189.091	0	0
189.323	0	0
189.556	0	0
189.788	0	0
190.02	0	0
190.252	0	0
190.484	0	0
190.717	0	0
190.949	0	0
191.181	0	0
191.413	0	0
191.645	0	0
191.877	0	0
192.109	0	0
192.341	0	0
192.573	0	0
192.805	0	0
193.037	0	0
193.268	0	0
193.5	0	0
193.732	0	0
193.964	0	0
194.196	0	0
194.427	0	0
194.659	0	0
194.891	0	0
195.123	0	0
195.354	0	0
195.586	0	0
195.817	0	0
196.049	0	0
196.281	0	0
196.512	0	0
196.744	0	0
196.975	0	0
197.206	0	0
197.438	0	0
197.669	0	0
197.901	0	0
198.132	0	0
198.363	0	0
198.595	0	0
198.826	0	0
199.057	0	0
199.288	0	0
199.519	0	0
199.751	0	0
199.982	0	0
200.213	0	0
200.444	0	0
200.675	0	0
200.906	0	0
201.137	0	0
201.368	0	0
201.599	0	0
201.83	0	0
202.061	0	0
202.292	0	0
202.523	0	0
202.754	0	0
202.984	0	0
203.215	0	0
203.446	0	0
203.677	0	0
203.907	0	0
204.138	0	0
204.369	0	0
204.599	0	0
204.83	0	0
205.061	0	0
205.291	0	0
205.522	0	0
205.752	0	0
205.983	0	0
206.213	0	0
206.444	0	0
206.674	0	0
206.904	0	0
207.135	0	0
207.365	0	0
207.595	0	0
207.826	0	0
208.056	0	0
208.286	0	0
208.516	0	0
208.747	0	0
208.977	0	0
209.207	0	0
209.437	0	0
209.667	0	0
209.897	0	0
210.127	0	0
210.357	0	0
210.587	0	0
210.817	0	0
211.047	0	0
211.277	0	0
211.507	0	0
211.737	0	0
211.967	0	0
212.196	0	0
212.426	0	0
212.656	0	0
212.886	0	0
213.115	0	0
213.345	0	0
213.575	0	0
213.804	0	0
214.034	0	0
214.264	0	0
214.493	0	0
214.723	0	0
214.952	0	0
215.182	0	0
215.411	0	0
215.641	0	0
215.87	0	0
216.099	0	0
216.329	0	0
216.558	0	0
216.787	0	0
217.017	0	0
217.246	0	0
217.475	0	0
217.704	0	0
217.934	0	0
218.163	0	0
218.392	0	0
218.621	0	0
218.85	0	0
219.079	0	0
219.308	0	0
219.537	0	0
219.766	0	0
219.995	0	0
220.224	0	0
220.453	0	0
220.682	0	0
220.911	0	0
221.14	0	0
221.368	0	0
221.597	0	0
221.826	0	0
222.055	0	0
222.283	0	0
222.512	0	0
222.741	0	0
222.969	0	0
223.198	0	0
223.426	0	0
223.655	0	0
223.884	0	0
224.112	0	0
224.341	0	0
224.569	0	0
224.797	0	0
225.026	0	0
225.254	0	0
225.483	0	0
225.711	0	0
225.939	0	0
226.168	0	0
226.396	0	0
226.624	0	0
226.852	0	0
227.08	0	0
227.309	0	0
227.537	0	0
227.765	0	0
227.993	0	0
228.221	0	0
228.449	0	0
228.677	0	0
228.905	0	0
229.133	0	0
229.361	0	0
229.589	0	0
229.817	0	0
230.045	0	0
230.272	0	0
230.5	0	0
230.728	0	0
230.956	0	0
231.183	0	0
231.411	0	0
231.639	0	0
231.866	0	0
232.094	0	0
232.322	0	0
232.549	0	0
232.777	0	0
233.004	0	0
233.232	0	0
233.459	0	0
233.687	0	0
233.914	0	0
234.142	0	0
234.369	0	0
234.596	0	0
234.824	0	0
235.051	0	0
235.278	0	0
235.506	0	0
235.733	0	0
235.96	0	0
236.187	0	0
236.414	0	0
236.641	0	0
236.869	0	0
237.096	0	0
237.323	0	0
237.55	0	0
237.777	0	0
238.004	0	0
238.231	0	0
238.458	0	0
238.685	0	0
238.911	0	0
239.138	0	0
239.365	0	0
239.592	0	0
239.819	0	0
240.045	0	0
240.272	0	0
240.499	0	0
240.726	0	0
240.952	0	0
241.179	0	0
241.405	0	0
241.632	0	0
241.859	0	0
242.085	0	0
242.312	0	0
242.538	0	0
242.764	0	0
242.991	0	0
243.217	0	0
243.444	0	0
243.67	0	0
243.896	0	0
244.123	0	0
244.349	0	0
244.575	0	0
244.801	0	0
245.028	0	0
245.254	0	0
245.48	0	0
245.706	0	0
245.932	0	0
246.158	0	0
246.384	0	0
246.61	0	0
246.836	0	0
247.062	0	0
247.288	0	0
247.514	0	0
247.74	0	0
247.966	0	0
248.192	0	0
248.418	0	0
248.643	0	0
248.869	0	0
249.095	0	0
249.321	0	0
249.546	0	0
249.772	0	0
249.998	0	0
250.223	0	0
250.449	0	0
250.675	0	0
250.9	0	0
251.126	0	0
251.351	0	0
251.577	0	0
251.802	0	0
252.027	0	0
252.253	0	0
252.478	0	0
252.704	0	0
252.929	0	0
253.154	0	0
253.379	0	0
253.605	0	0
253.83	0	0
254.055	0	0
254.28	0	0
254.505	0	0
254.731	0	0
254.956	0	0
255.181	0	0
255.406	0	0
255.631	0	0
255.856	0	0
256.081	0	0
256.306	0	0
256.531	0	0
256.756	0	0
256.98	0	0
257.205	0	0
257.43	0	0
257.655	0	0
257.88	0	0
258.104	0	0
258.329	0	0
258.554	0	0
258.779	0	0
259.003	0	0
259.228	0	0
259.452	0	0
259.677	0	0
259.902	0	0
260.126	0	0
260.351	0	0
260.575	0	0
260.799	0	0
261.024	0	0
261.248	0	0
261.473	0	0
261.697	0	0
261.921	0	0
262.146	0	0
262.37	0	0
262.594	0	0
262.818	0	0
263.043	0	0
263.267	0	0
263.491	0	0
263.715	0	0
263.939	0	0
264.163	0	0
264.387	0	0
264.611	0	0
264.835	0	0
265.059	0	0
265.283	0	0
265.507	0	0
265.731	0	0
265.955	0	0
266.179	0	0
266.402	0	0
266.626	0	0
266.85	0	0
267.074	0	0
267.298	0	0
267.521	0	0
267.745	0	0
267.969	0	0
268.192	0	0
268.416	0	0
268.639	0	0
268.863	0	0
269.086	0	0
269.31	0	0
269.533	0	0
269.757	0	0
269.98	0	0
270.204	0	0
270.427	0	0
270.65	0	0
270.874	0	0
271.097	0	0
271.32	0	0
271.543	0	0
271.767	0	0
271.99	0	0
272.213	0	0
272.436	0	0
272.659	0	0
272.882	0	0
273.105	0	0
273.328	0	0
273.551	0	0
273.774	0	0
273.997	0	0
274.22	0	0
274.443	0	0
274.666	0	0
274.889	0	0
275.112	0	0
275.335	0	0
275.557	0	0
275.78	0	0
276.003	0	0
276.226	0	0
276.448	0	0
276.671	0	0
276.894	0	0
277.116	0	0
277.339	0	0
277.561	0	0
277.784	0	0
278.007	0	0
278.229	0	0
278.452	0	0
278.674	0	0
278.896	0	0
279.119	0	0
279.341	0	0
279.563	0	0
279.786	0	0
280.008	0	0
280.23	0	0
280.453	0	0
280.675	0	0
280.897	0	0
281.119	0	0
281.341	0	0
281.563	0	0
281.785	0	0
282.008	0	0
282.23	0	0
282.452	0	0
282.674	0	0
282.896	0	0
283.117	0	0
283.339	0	0
283.561	0	0
283.783	0	0
284.005	0	0
284.227	0	0
284.449	0	0
284.67	0	0
284.892	0	0
285.114	0	0
285.336	0	0
285.557	0	0
285.779	0	0
286	0	0
286.222	0	0
286.444	0	0
286.665	0	0
286.887	0	0
287.108	0	0
287.33	0	0
287.551	0	0
287.772	0	0
287.994	0	0
288.215	0	0
288.437	0	0
288.658	0	0
288.879	0	0
289.1	0	0
289.322	0	0
289.543	0	0
289.764	0	0
289.985	0	0
290.206	0	0
290.427	0	0
290.649	0	0
290.87	0	0
291.091	0	0
291.312	0	0
291.533	0	0
291.754	0	0
291.974	0	0
292.195	0	0
292.416	0	0
292.637	0	0
292.858	0	0
293.079	0	0
293.3	0	0
293.52	0	0
293.741	0	0
293.962	0	0
294.182	0	0
294.403	0	0
294.624	0	0
294.844	0	0
295.065	0	0
295.286	0	0
295.506	0	0
295.727	0	0
295.947	0	0
296.168	0	0
296.388	0	0
296.608	0	0
296.829	0	0
297.049	0	0
297.269	0	0
297.49	0	0
297.71	0	0
297.93	0	0
298.151	0	0
298.371	0	0
298.591	0	0
298.811	0	0
299.031	0	0
299.251	0	0
299.471	0	0
299.691	0	0
299.911	0	0
300.132	0	0
300.352	0	0
300.571	0	0
300.791	0	0
301.011	0	0
301.231	0	0
301.451	0	0
301.671	0	0
301.891	0	0
302.11	0	0
302.33	0	0
302.55	0	0
302.77	0	0
302.989	0	0
303.209	0	0
303.429	0	0
303.648	0	0
303.868	0	0
304.087	0	0
304.307	0	0
304.526	0	0
304.746	0	0
304.965	0	0
305.185	0	0
305.404	0	0
305.624	0	0
305.843	0	0
306.062	0	0
306.282	0	0
306.501	0	0
306.72	0	0
306.939	0	0
307.159	0	0
307.378	0	0
307.597	0	0
307.816	0	0
308.035	0	0
308.254	0	0
308.473	0	0
308.692	0	0
308.911	0	0
309.13	0	0
309.349	0	0
309.568	0	0
309.787	0	0
310.006	0	0
310.225	0	0
310.444	0	0
310.662	0	0
310.881	0	0
311.1	0	0
311.319	0	0
311.537	0	0
311.756	0	0
311.975	0	0
312.193	0	0
312.412	0	0
312.631	0	0
312.849	0	0
313.068	0	0
313.286	0	0
313.505	0	0
313.723	0	0
313.941	0	0
314.16	0	0
314.378	0	0
314.597	0	0
314.815	0	0
315.033	0	0
315.252	0	0
315.47	0	0
315.688	0	0
315.906	0	0
316.124	0	0
316.343	0	0
316.561	0	0
316.779	0	0
316.997	0	0
317.215	0	0
317.433	0	0
317.651	0	0
317.869	0	0
318.087	0	0
318.305	0	0
318.523	0	0
318.741	0	0
318.958	0	0
319.176	0	0
319.394	0	0
319.612	0	0
319.83	0	0
320.047	0	0
320.265	0	0
320.483	0	0
320.7	0	0
320.918	0	0
321.136	0	0
321.353	0	0
321.571	0	0
321.788	0	0
322.006	0	0
322.223	0	0
322.441	0	0
322.658	0	0
322.875	0	0
323.093	0	0
323.31	0	0
323.528	0	0
323.745	0	0
323.962	0	0
324.179	0	0
324.397	0	0
324.614	0	0
324.831	0	0
325.048	0	0
325.265	0	0
325.482	0	0
325.699	0	0
325.916	0	0
326.133	0	0
326.35	0	0
326.567	0	0
326.784	0	0
327.001	0	0
327.218	0	0
327.435	0	0
327.652	0	0
327.869	0	0
328.086	0	0
328.302	0	0
328.519	0	0
328.736	0	0
328.953	0	0
329.169	0	0
329.386	0	0
329.602	0	0
329.819	0	0
330.036	0	0
330.252	0	0
330.469	0	0
330.685	0	0
330.902	0	0
331.118	0	0
331.335	0	0
331.551	0	0
331.767	0	0
331.984	0	0
332.2	0	0
332.416	0	0
332.633	0	0
332.849	0	0
333.065	0	0
333.281	0	0
333.497	0	0
333.714	0	0
333.93	0	0
334.146	0	0
334.362	0	0
334.578	0	0
334.794	0	0
335.01	0	0
335.226	0	0
335.442	0	0
335.658	0	0
335.874	0	0
336.09	0	0
336.305	0	0
336.521	0	0
336.737	0	0
336.953	0	0
337.168	0	0
337.384	0	0
337.6	0	0
337.816	0	0
338.031	0	0
338.247	0	0
338.462	0	0
338.678	0	0
338.894	0	0
339.109	0	0
339.325	0	0
339.54	0	0
339.755	0	0
339.971	0	0
340.186	0	0
340.402	0	0
340.617	0	0
340.832	0	0
341.048	0	0
341.263	0	0
341.478	0	0
341.693	0	0
341.909	0	0
342.124	0	0
342.339	0	0
342.554	0	0
342.769	0	0
342.984	0	0
343.199	0	0
343.414	0	0
343.629	0	0
343.844	0	0
344.059	0	0
344.274	0	0
344.489	0	0
344.704	0	0
344.919	0	0
345.133	0	0
345.348	0	0
345.563	0	0
345.778	0	0
345.992	0	0
346.207	0	0
346.422	0	0
346.636	0	0
346.851	0	0
347.066	0	0
347.28	0	0
347.495	0	0
347.709	0	0
347.924	0	0
348.138	0	0
348.353	0	0
348.567	0	0
348.782	0	0
348.996	0	0
349.21	0	0
349.425	0	0
349.639	0	0
349.853	0	0
350.067	0	0
350.282	0	0
350.496	0	0
350.71	0	0
350.924	0	0
351.138	0	0
351.352	0	0
351.566	0	0
351.78	0	0
351.994	0	0
352.208	0	0
352.422	0	0
352.636	0	0
352.85	0	0
353.064	0	0
353.278	0	0
353.492	0	0
353.706	0	0
353.919	0	0
354.133	0	0
354.347	0	0
354.561	0	0
354.774	0	0
354.988	0	0
355.202	0	0
355.415	0	0
355.629	0	0
355.842	0	0
356.056	0	0
356.269	0	0
356.483	0	0
356.696	0	0
356.91	0	0
357.123	0	0
357.337	0	0
357.55	0	0
357.763	0	0
357.977	0	0
358.19	0	0
358.403	0	0
358.616	0	0
358.83	0	0
359.043	0	0
359.256	0	0
359.469	0	0
359.682	0	0
359.895	0	0
360.108	0	0
360.321	0	0
360.534	0	0
360.747	0	0
360.96	0	0
361.173	0	0
361.386	0	0
361.599	0	0
361.812	0	0
362.025	0	0
362.238	0	0
362.45	0	0
362.663	0	0
362.876	0	0
363.089	0	0
363.301	0	0
363.514	0	0
363.727	0	0
363.939	0	0
364.152	0	0
364.364	0	0
364.577	0	0
364.789	0	0
365.002	0	0
365.214	0	0
365.427	0	0
365.639	0	0
365.852	0	0
366.064	0	0
366.276	0	0
366.489	0	0
366.701	0	0
366.913	0	0
367.125	0	0
367.338	0	0
367.55	0	0
367.762	0	0
367.974	0	0
368.186	0	0
368.398	0	0
368.61	0	0
368.822	0	0
369.034	0	0
369.246	0	0
369.458	0	0
369.67	0	0
369.882	0	0
370.094	0	0
370.306	0	0
370.518	0	0
370.73	0	0
370.941	0	0
371.153	0	0
371.365	0	0
371.577	0	0
371.788	0	0
372	0	0
372.212	0	0
372.423	0	0
372.635	0	0
372.846	0	0
373.058	0	0
373.269	0	0
373.481	0	0
373.692	0	0
373.904	0	0
374.115	0	0
374.327	0	0
374.538	0	0
374.749	0	0
374.961	0	0
375.172	0	0
375.383	0	0
375.594	0	0
375.805	0	0
376.017	0	0
376.228	0	0
376.439	0	0
376.65	0	0
376.861	0	0
377.072	0	0
377.283	0	0
377.494	0	0
377.705	0	0
377.916	0	0
378.127	0	0
378.338	0	0
378.549	0	0
378.76	0	0
378.971	0	0
379.181	0	0
379.392	0	0
379.603	0	0
379.814	0	0
380.024	0	0
380.235	0	0
380.446	0	0
380.656	0	0
380.867	0	0
381.078	0	0
381.288	0	0
381.499	0	0
381.709	0	0
381.92	0	0
382.13	0	0
382.34	0	0
382.551	0	0
382.761	0	0
382.972	0	0
383.182	0	0
383.392	0	0
383.603	0	0
383.813	0	0
384.023	0	0
384.233	0	0
384.443	0	0
384.654	0	0
384.864	0	0
385.074	0	0
385.284	0	0
385.494	0	0
385.704	0	0
385.914	0	0
386.124	0	0
386.334	0	0
386.544	0	0
386.754	0	0
386.964	0	0
387.173	0	0
387.383	0	0
387.593	0	0
387.803	0	0
388.013	0	0
388.222	0	0
388.432	0	0
388.642	0	0
388.851	0	0
389.061	0	0
389.271	0	0
389.48	0	0
389.69	0	0
389.899	0	0
390.109	0	0
390.318	0	0
390.528	0	0
390.737	0	0
390.947	0	0
391.156	0	0
391.365	0	0
391.575	0	0
391.784	0	0
391.993	0	0
392.202	0	0
392.412	0	0
392.621	0	0
392.83	0	0
393.039	0	0
393.248	0	0
393.457	0	0
393.666	0	0
393.876	0	0
394.085	0	0
394.294	0	0
394.503	0	0
394.711	0	0
394.92	0	0
395.129	0	0
395.338	0	0
395.547	0	0
395.756	0	0
395.965	0	0
396.173	0	0
396.382	0	0
396.591	0	0
396.8	0	0
397.008	0	0
397.217	0	0
397.426	0	0
397.634	0	0
397.843	0	0
398.051	0	0
398.26	0	0
398.468	0	0
398.677	0	0
398.885	0	0
399.094	0	0
399.302	0	0
399.51	0	0
399.719	0	0
399.927	0	0
400.135	0	0
400.344	0	0
400.552	0	0
400.76	0	0
400.968	0	0
401.176	0	0
401.385	0	0
401.593	0	0
401.801	0	0
402.009	0	0
402.217	0	0
402.425	0	0
402.633	0	0
402.841	0	0
403.049	0	0
403.257	0	0
403.465	0	0
403.673	0	0
403.88	0	0
404.088	0	0
404.296	0	0
404.504	0	0
404.712	0	0
404.919	0	0
405.127	0	0
405.335	0	0
405.542	0	0
405.75	0	0
405.958	0	0
406.165	0	0
406.373	0	0
406.58	0	0
406.788	0	0
406.995	0	0
407.203	0	0
407.41	0	0
407.617	0	0
407.825	0	0
408.032	0	0
408.239	28.2651	29.1311
408.447	29.706	28.6333
408.654	30.5901	29.7775
408.861	28.0308	31.3678
409.068	30.7834	29.1626
409.276	30.3116	29.4353
409.483	29.8192	29.5462
409.69	31.7843	31.7843
409.897	31.094	31.939
410.104	33.3271	31.7031
410.311	33.3032	32.7905
410.518	34.6173	33.2102
410.725	33.1727	33.5108
410.932	32.9407	30.6454
411.139	33.3039	32.6081
411.346	35.0713	33.6059
411.553	35.6953	32.5577
411.76	34.5291	31.7864
411.967	35.012	34.2405
412.174	35.1355	33.2111
412.381	36.3262	33.2736
412.587	36.3923	35.6639
412.794	36.1534	33.7999
413.001	35.4468	35.4468
413.208	37.2003	35.704
413.414	37.2484	35.3949
413.621	37.7536	34.8836
413.828	36.0495	34.8717
414.034	36.4923	34.3669
414.241	38.3771	35.9968
414.447	37.0032	34.749
414.654	37.6087	36.8683
414.86	37.1469	36.1534
415.067	36.6941	35.7651
415.273	37.6977	36.4446
415.48	37.8757	36.9387
415.686	37.7264	36.8754
415.893	37.7944	36.9664
416.099	37.5274	37.1957
416.305	38.8992	37.8313
416.512	39.8089	38.8182
416.718	38.6331	37.168
416.924	39.5183	37.6612
417.131	38.4794	38.1391
417.337	38.1917	36.7408
417.543	39.0426	37.8236
417.749	39.8666	37.4672
417.955	39.2644	38.6252
418.161	40.3325	37.4417
418.367	39.8161	37.8872
418.574	39.7549	38.144
418.78	40.7639	38.5057
418.986	40.1207	38.4562
419.192	39.8973	38.7773
419.398	40.6073	39.2949
419.604	40.2449	38.8739
419.809	40.451	39.0038
420.015	40.6754	38.898
420.221	40.8537	38.2739
420.427	40.7301	39.0068
420.633	40.7513	38.2078
420.839	41.0382	39.4007
421.044	41.2377	39.4931
421.25	40.6596	38.8048
421.456	41.954	39.5875
421.662	41.743	40.1939
421.867	41.9796	39.5323
422.073	40.9912	39.8369
422.278	41.6052	39.5714
422.484	41.7099	39.8733
422.69	41.4161	39.7521
422.895	42.0021	40.0409
423.101	42.2052	40.2394
423.306	41.8734	39.7242
423.512	42.3031	39.9193
423.717	42.4403	40.3997
423.922	42.229	39.9041
424.128	42.0246	40.0763
424.333	41.9591	39.8573
424.539	41.8694	40.3518
424.744	42.7525	40.4352
424.949	42.9608	40.4616
425.154	42.5043	40.4986
425.36	42.5318	40.3513
425.565	42.7657	40.5653
425.77	42.5387	40.5412
425.975	42.4473	40.561
426.18	42.9828	40.6753
426.385	42.9115	40.6187
426.591	42.4292	40.8974
426.796	42.8338	40.8204
427.001	42.9198	41.1907
427.206	43.1876	40.7386
427.411	43.3451	40.847
427.616	42.9354	41.2713
427.821	43.18	41.2583
428.026	43.3755	40.8983
428.23	43.2434	41.1567
428.435	43.3738	41.4136
428.64	43.596	41.6577
428.845	43.6035	41.5347
429.05	43.7149	41.2763
429.254	43.7284	41.5758
429.459	43.5829	41.5468
429.664	43.499	41.3675
429.869	43.483	41.486
430.073	43.4562	41.2275
430.278	44.0233	41.5175
430.483	43.681	41.7017
430.687	43.7614	41.4811
430.892	43.9263	41.9465
431.096	43.9194	41.8493
431.301	43.767	41.439
431.505	43.6434	41.5489
431.71	44.0204	41.5096
431.914	43.9054	41.8942
432.118	43.9141	41.4728
432.323	43.9205	41.8611
432.527	43.6421	41.9998
432.732	43.9759	41.7546
432.936	44.1205	41.8618
433.14	44.2022	42.0236
433.344	44.1904	41.8546
433.549	43.9849	42.0533
433.753	44.5163	41.9321
433.957	44.3187	42.1458
434.161	44.2575	41.9929
434.365	44.5512	42.28
434.57	44.1795	42.0394
434.774	44.4429	42.1009
434.978	44.5762	42.2042
435.182	44.5923	42.1387
435.386	44.9272	42.3466
435.59	44.7281	42.3942
435.794	44.6421	42.4372
435.998	44.5412	42.2746
436.201	44.9225	42.3625
436.405	44.5974	42.0827
436.609	44.8813	42.6363
436.813	44.7534	42.4524
437.017	44.566	42.5186
437.221	44.7938	42.5209
437.424	44.6904	42.5217
437.628	44.6656	42.6144
437.832	44.7647	42.7198
438.036	44.9415	42.7432
438.239	45.0419	42.8097
438.443	44.9295	42.7396
438.646	44.8295	42.764
438.85	44.9238	42.8041
439.054	45.0358	42.7438
439.257	44.9839	42.9766
439.461	45.0446	42.7758
439.664	45.0297	42.9144
439.868	45.1249	43.2236
440.071	45.0703	43.1241
440.274	45.1291	42.9667
440.478	45.1606	43.0258
440.681	45.1082	43.0028
440.885	45.1188	43.1679
441.088	45.1662	43.298
441.291	44.966	43.2015
441.494	45.2246	43.0345
441.698	45.2313	43.3676
441.901	45.2361	43.3206
442.104	45.1499	43.4567
442.307	45.1766	43.4106
442.51	45.2442	43.3584
442.713	45.2841	43.578
442.916	45.2724	43.5682
443.12	45.166	43.4951
443.323	45.1092	43.5649
443.526	45.2116	43.5299
443.729	45.1269	43.5961
443.932	45.0698	43.5854
444.134	45.1313	43.5353
444.337	44.9891	43.5503
444.54	45.0873	43.6814
444.743	44.9405	43.5571
444.946	44.9111	43.5763
445.149	44.8365	43.45
445.352	44.9463	43.6874
445.554	44.834	43.608
445.757	44.9228	43.6214
445.96	44.7222	43.6315
446.162	44.9159	43.5132
446.365	44.6696	43.534
446.568	44.7116	43.5117
446.77	44.7485	43.4862
446.973	44.6802	43.5601
447.175	44.7911	43.551
447.378	44.7499	43.4868
447.58	44.7672	43.5271
447.783	44.9709	43.5808
447.985	44.7949	43.5592
448.188	44.5825	43.5816
448.39	44.858	43.4769
448.593	44.6932	43.5456
448.795	44.4968	43.3011
448.997	44.7501	43.6262
449.2	44.52	43.5325
449.402	44.6506	43.5145
449.604	44.6559	43.4674
449.806	44.556	43.2709
450.009	44.6816	43.5011
450.211	44.607	43.2593
450.413	44.5101	43.5185
450.615	44.672	43.3438
450.817	44.4584	43.4697
451.019	44.373	43.3578
451.221	44.572	43.3329
451.423	44.515	43.2065
451.625	44.7082	43.5523
451.827	44.6736	43.3426
452.029	44.4623	43.4189
452.231	44.3318	43.2806
452.433	44.2141	43.1147
452.635	44.4949	43.1266
452.837	44.4292	43.1038
453.039	44.5985	43.3029
453.24	44.7329	43.2984
453.442	44.2759	43.0341
453.644	44.6748	43.2017
453.846	44.5396	43.027
454.047	44.7036	43.2146
454.249	44.3617	43.1718
454.451	44.531	43.158
454.652	44.4576	43.0592
454.854	44.2516	42.9355
455.056	44.7161	43.0438
455.257	44.4158	43.1244
455.459	44.4088	42.8818
455.66	44.3355	42.9261
455.862	44.3143	43.0721
456.063	44.2758	42.7438
456.265	44.2447	43.1299
456.466	44.3808	42.7825
456.667	44.3817	42.9507
456.869	44.0569	42.8145
457.07	44.2717	43.1263
457.271	44.3111	42.9697
457.473	44.26	42.7242
457.674	44.2089	42.7607
457.875	44.4016	42.8257
458.076	43.9486	42.6471
458.277	44.2328	42.7408
458.479	44.2142	43.0097
458.68	43.9432	42.7597
458.881	43.8416	42.472
459.082	43.8515	42.5825
459.283	44.1255	42.7247
459.484	43.999	42.9636
459.685	43.8568	42.6256
459.886	44.0112	42.8591
460.087	44.0143	42.5339
460.288	43.8416	42.6807
460.489	43.762	42.7696
460.69	43.7837	42.7027
460.89	43.5846	42.5807
461.091	43.5162	42.2959
461.292	43.8396	42.6225
461.493	43.7106	42.1171
461.694	43.8521	42.6517
461.894	43.5956	42.3332
462.095	43.519	42.3788
462.296	43.4564	42.3222
462.496	43.5251	42.3357
462.697	43.4081	42.3525
462.898	43.2678	42.2938
463.098	43.6367	42.1946
463.299	43.3531	42.3441
463.499	43.2514	42.2717
463.7	43.4665	41.9641
463.9	43.3123	42.3867
464.101	43.2914	42.2571
464.301	43.6456	42.3234
464.501	43.28	41.9141
464.702	43.0484	42.0274
464.902	43.075	41.7465
465.103	43.383	42.0193
465.303	43.02	41.9241
465.503	43.1883	42.0837
465.703	43.2886	41.7085
465.904	43.0617	41.7555
466.104	43.2172	41.6514
466.304	42.9372	41.763
466.504	43.0885	41.5545
466.704	43.0661	41.3586
466.904	42.9754	41.6183
467.104	42.6645	41.4163
467.304	42.6677	41.18
467.504	42.998	41.3233
467.704	42.6033	41.2439
467.904	42.6918	41.1556
468.104	42.7763	41.035
468.304	42.4401	40.9807
468.504	42.4951	41.1695
468.704	42.4137	40.9593
468.904	42.7083	41.0522
469.104	42.3591	40.6599
469.304	42.4369	41.2796
469.503	42.3235	40.9431
469.703	42.1939	40.637
469.903	42.3211	41.0312
470.103	42.0394	40.5075
470.302	42.3591	40.6859
470.502	42.1019	40.5032
470.701	42.1739	40.5608
470.901	42.0475	40.4574
471.101	41.949	40.4067
471.3	41.5709	40.6848
471.5	41.7156	40.2607
471.699	41.8142	40.5053
471.899	41.7808	40.027
472.098	41.2532	40.4019
472.298	41.5389	40.1153
472.497	41.5931	40.2424
472.696	41.3011	40.1312
472.896	41.4029	40.1918
473.095	41.444	39.9029
473.294	41.2855	39.6783
473.494	41.0985	39.669
473.693	41.3001	39.6573
473.892	40.9232	39.5479
474.091	40.7778	39.5062
474.29	40.9799	39.6382
474.49	40.8195	39.3487
474.689	40.6642	39.3253
474.888	40.5405	39.2299
475.087	40.6221	39.3808
475.286	40.7139	39.296
475.485	40.4383	39.1607
475.684	40.3742	38.9938
475.883	40.3244	39.088
476.082	40.2002	38.889
476.281	40.139	38.6498
476.48	40.3462	39.0087
476.678	40.0499	38.8215
476.877	40.0083	38.7567
477.076	40.0594	38.6659
477.275	40.0539	38.4864
477.474	39.9554	38.4638
477.672	39.9272	38.5469
477.871	39.8919	38.3957
478.07	39.5	38.4628
478.269	39.5382	38.1662
478.467	39.2657	38.1344
478.666	39.5208	38.3617
478.864	39.5032	38.0317
479.063	39.2324	38.0653
479.262	39.2632	37.914
479.46	39.1374	37.6584
479.659	39.4019	38.0624
479.857	38.7808	37.6712
480.055	39.1684	37.5832
480.254	39.0529	37.5479
480.452	38.7765	37.3542
480.651	38.7707	37.3401
480.849	38.5673	37.2947
481.047	38.7093	37.3093
481.246	38.3493	37.1386
481.444	38.2557	37.0271
481.642	38.206	36.9313
481.84	38.4512	37.0085
482.039	38.0553	36.9542
482.237	38.0897	36.6959
482.435	38.1192	36.9922
482.633	37.8621	36.646
482.831	37.8133	36.5087
483.029	37.8341	36.26
483.227	37.6656	36.4871
483.425	37.8097	36.3772
483.623	37.6424	36.2841
483.821	37.5788	36.1788
484.019	37.3781	36.1397
484.217	37.3674	36.1159
484.415	36.9662	36.0369
484.613	36.9539	35.841
484.811	37.138	35.8646
485.008	37.1909	35.8762
485.206	37.053	35.7706
485.404	36.7843	35.6042
485.602	36.6047	35.4782
485.799	36.6993	35.4891
485.997	36.6538	35.3559
486.195	36.5824	35.3427
486.392	36.2384	35.2306
486.59	36.6095	35.3506
486.788	36.3111	35.1522
486.985	36.2261	34.8337
487.183	36.1273	35.0621
487.38	35.9025	34.9337
487.578	35.7818	34.6182
487.775	35.9172	34.7828
487.973	35.4983	34.4683
488.17	35.6632	34.5474
488.367	35.7452	34.5193
488.565	35.5402	34.2678
488.762	35.4647	34.2523
488.959	35.3663	34.1759
489.157	35.2332	34.2456
489.354	35.0878	34.0489
489.551	35.1814	34.0238
489.749	34.9235	33.7714
489.946	34.7712	33.7743
490.143	34.7544	33.7491
490.34	34.7852	33.6256
490.537	34.6052	33.5792
490.734	34.4696	33.4628
490.931	34.4758	33.2265
491.128	34.1903	33.2067
491.325	34.3507	33.2832
491.522	34.3234	32.9978
491.719	34.0314	32.9599
491.916	34.2101	33.2017
492.113	33.9056	32.9634
492.31	33.9327	32.8648
492.507	33.5957	32.6921
492.704	33.6477	32.5798
492.901	33.5518	32.4756
493.097	33.4687	32.7602
493.294	33.5397	32.436
493.491	33.2335	32.2675
493.688	33.1459	32.2562
493.884	33.1924	32.1763
494.081	32.8959	32.081
494.278	32.8927	32.0368
494.474	32.6554	31.9556
494.671	32.7024	31.6712
494.867	32.5601	31.7448
495.064	32.6513	31.7539
495.26	32.5608	31.4166
495.457	32.5261	31.3862
495.653	32.3151	31.2277
495.85	32.289	31.3738
496.046	32.0205	31.2033
496.243	31.9314	31.1459
496.439	32.1167	31.0247
496.635	31.5907	30.9576
496.832	31.4796	30.8102
497.028	31.5537	30.6844
497.224	31.4261	30.6311
497.42	31.5325	30.6402
497.617	31.2841	30.6253
497.813	31.2157	30.553
498.009	31.0225	30.3067
498.205	31.2036	30.2989
498.401	30.8811	30.0834
498.597	30.9291	30.0382
498.793	30.8695	29.8781
498.989	30.6658	29.9908
499.185	30.446	29.7093
499.381	30.3151	29.5301
499.577	30.3387	29.5922
499.773	30.1581	29.4744
499.969	30.097	29.2599
500.165	29.9602	29.1435
500.361	30.0341	29.2795
500.557	29.8826	29.1133
500.753	29.7488	29.0599
500.948	29.6552	28.87
501.144	29.6008	29.0884
501.34	29.292	28.6595
501.536	29.3542	28.7314
501.731	29.3401	28.6181
501.927	29.2702	28.5852
502.123	29.1117	28.2935
502.318	29.0983	28.2873
502.514	28.8721	28.2195
502.709	28.8156	28.288
502.905	28.6414	27.9805
503.1	28.4475	27.9909
503.296	28.7082	27.9202
503.491	28.3154	27.9501
503.687	28.2968	27.6001
503.882	28.0299	27.5411
504.078	27.9504	27.4246
504.273	28.1386	27.4372
504.468	27.9604	27.2872
504.664	27.9514	27.2495
504.859	27.7837	27.1472
505.054	27.6994	26.9956
505.249	27.5682	27.0354
505.445	27.4297	26.9183
505.64	27.1912	26.7998
505.835	27.3139	26.6684
506.03	27.1083	26.6651
506.225	27.0894	26.5024
506.42	27.0284	26.458
506.615	26.7606	26.3769
506.81	26.6797	26.2092
507.005	26.7023	26.2847
507.2	26.6253	26.1219
507.395	26.6794	25.9798
507.59	26.277	25.8061
507.785	26.3375	25.9274
507.98	26.2492	25.5983
508.175	26.1856	25.6599
508.37	26.0212	25.5948
508.564	25.9242	25.4542
508.759	25.8004	25.3243
508.954	25.82	25.4143
509.149	25.6964	25.238
509.343	25.5756	25.1624
509.538	25.4654	25.0857
509.733	25.4479	24.868
509.927	25.3816	24.7951
510.122	25.1165	24.678
510.317	25.137	24.6525
510.511	24.9964	24.661
510.706	25.0278	24.5571
510.9	24.8316	24.3736
511.095	24.709	24.3046
511.289	24.756	24.2252
511.484	24.6401	24.1428
511.678	24.4642	24.1272
511.872	24.1593	24.0182
512.067	24.3691	23.8446
512.261	24.2603	23.8162
512.455	24.2242	23.8379
512.65	24.0565	23.8046
512.844	23.9579	23.7533
513.038	23.7972	23.5273
513.232	23.7477	23.4471
513.427	23.5622	23.3357
513.621	23.5697	23.2609
513.815	23.5376	23.1428
514.009	23.4569	23.0173
514.203	23.3412	23.058
514.397	23.2133	22.9942
514.591	23.2298	22.778
514.785	23.1494	22.7838
514.979	22.94	22.6478
515.173	22.9545	22.7237
515.367	22.9507	22.6268
515.561	22.7691	22.551
515.755	22.6395	22.4011
515.949	22.4517	22.3391
516.142	22.4631	22.1679
516.336	22.4202	22.1614
516.53	22.4289	22.1002
516.724	22.2409	21.9116
516.917	22.1021	21.9946
517.111	22.1155	21.7893
517.305	22.0351	21.8019
517.499	22.001	21.6638
517.692	21.896	21.7037
517.886	21.7104	21.5486
518.079	21.6235	21.4835
518.273	21.6544	21.2778
518.466	21.5554	21.2785
518.66	21.3742	21.1902
518.853	21.2755	21.1351
519.047	21.1809	21.1185
519.24	21.1088	20.9834
519.434	21.0555	20.8537
519.627	21.1209	20.772
519.82	20.9032	20.8888
520.014	20.8333	20.6675
520.207	20.7296	20.6125
520.4	20.6914	20.4802
520.594	20.6258	20.3892
520.787	20.5593	20.4162
520.98	20.521	20.4089
521.173	20.3429	20.1493
521.366	20.2908	20.1781
521.56	20.184	20.0586
521.753	20.2645	20.082
521.946	20.0485	19.9781
522.139	19.9124	19.842
522.332	19.918	19.7877
522.525	19.8806	19.6813
522.718	19.7507	19.6408
522.911	19.697	19.6126
523.104	19.5458	19.489
523.297	19.5017	19.4472
523.489	19.4547	19.2795
523.682	19.3579	19.3206
523.875	19.3245	19.12
524.068	19.1171	19.1483
524.261	19.1599	19.0519
524.453	19.1322	19.0682
524.646	18.9484	18.9305
524.839	18.898	18.8295
525.031	18.7952	18.7222
525.224	18.7314	18.6605
525.417	18.7406	18.7054
525.609	18.5202	18.5187
525.802	18.5211	18.3403
525.995	18.4781	18.4199
526.187	18.3862	18.3795
526.38	18.3128	18.2964
526.572	18.2865	18.1804
526.765	18.1678	18.0969
526.957	18.1545	18.1014
527.149	18.0796	17.9307
527.342	18.0365	17.9122
527.534	18.0139	17.96
527.726	17.8388	17.8328
527.919	17.7388	17.7328
528.111	17.6389	17.7332
528.303	17.6337	17.5828
528.495	17.5561	17.5899
528.688	17.4707	17.4355
528.88	17.3269	17.3742
529.072	17.2704	17.3626
529.264	17.2593	17.1993
529.456	17.1634	17.1671
529.648	17.2273	17.1739
529.84	17.0527	17.0025
530.032	16.9138	16.9973
530.224	16.8312	16.8695
530.416	16.931	16.8844
530.608	16.7379	16.8274
530.8	16.7082	16.8021
530.992	16.633	16.6413
531.184	16.5524	16.5577
531.376	16.4163	16.5066
531.568	16.5006	16.4659
531.759	16.3461	16.3611
531.951	16.2913	16.2468
532.143	16.1864	16.1637
532.335	16.1366	16.1509
532.526	16.1392	16.1565
532.718	16.086	16.1593
532.91	15.9243	16.0527
533.101	15.8264	15.9073
533.293	15.8043	15.8156
533.484	15.8197	15.8348
533.676	15.6632	15.7955
533.868	15.6181	15.6839
534.059	15.5989	15.667
534.251	15.4525	15.6378
534.442	15.5128	15.5332
534.633	15.3422	15.4059
534.825	15.2744	15.3728
535.016	15.1939	15.315
535.208	15.2632	15.3253
535.399	15.2147	15.1996
535.59	15.013	15.1198
535.781	15.0246	15.0654
535.973	14.9444	14.9844
536.164	14.8716	15.0679
536.355	14.9216	14.9367
536.546	14.7455	14.8376
536.737	14.714	14.7871
536.929	14.5653	14.6594
537.12	14.5185	14.6354
537.311	14.605	14.617
537.502	14.5092	14.5958
537.693	14.4046	14.5364
537.884	14.2287	14.4454
538.075	14.2087	14.308
538.266	14.2363	14.3101
538.457	14.1319	14.2229
538.648	14.0721	14.1373
538.838	14.0057	14.1925
539.029	13.9835	13.9715
539.22	14.0014	14.0822
539.411	13.8438	13.9655
539.602	13.8091	13.9452
539.792	13.7388	13.8641
539.983	13.7113	13.7567
540.174	13.6531	13.7394
540.365	13.5743	13.6925
540.555	13.5692	13.6537
540.746	13.4503	13.6327
540.936	13.3889	13.5
541.127	13.2564	13.4633
541.317	13.3391	13.4965
541.508	13.3407	13.4823
541.698	13.1776	13.3703
541.889	13.174	13.2664
542.079	13.1367	13.2004
542.27	12.9995	13.2272
542.46	12.859	13.1367
542.651	13.0174	13.105
542.841	12.7619	13.0127
543.031	12.8181	12.9562
543.222	12.7705	12.8937
543.412	12.6545	12.8457
543.602	12.5913	12.7062
543.792	12.675	12.8042
543.982	12.5043	12.711
544.173	12.4836	12.5691
544.363	12.3686	12.6373
544.553	12.4087	12.6233
544.743	12.337	12.4549
544.933	12.2626	12.4992
545.123	12.2282	12.3673
545.313	12.1738	12.3973
545.503	12.1039	12.3281
545.693	12.035	12.2413
545.883	11.9076	12.1132
546.073	11.9469	12.1893
546.263	11.9871	12.1937
546.453	11.844	12.0584
546.643	11.845	12.0925
546.832	11.7992	12.0113
547.022	11.6971	11.962
547.212	11.6856	11.9012
547.402	11.6342	11.8348
547.591	11.6751	11.8032
547.781	11.5646	11.7351
547.971	11.523	11.6869
548.16	11.5309	11.6443
548.35	11.454	11.5472
548.54	11.4166	11.6586
548.729	11.323	11.5074
548.919	11.2698	11.4303
549.108	11.2327	11.4192
549.298	11.1504	11.3338
549.487	11.1366	11.4156
549.677	11.101	11.2413
549.866	10.9723	11.2405
550.055	11.0501	11.2648
550.245	10.8626	11.1914
550.434	10.9841	11.075
550.623	10.8653	11.1738
550.813	10.8807	11.1589
551.002	10.8351	11.0337
551.191	10.7356	10.9469
551.381	10.7249	10.9575
551.57	10.701	10.951
551.759	10.7484	10.9787
551.948	10.5484	10.7775
552.137	10.5539	10.7981
552.326	10.551	10.8081
552.515	10.422	10.6931
552.704	10.5047	10.6324
552.893	10.3607	10.6447
553.082	10.369	10.5814
553.271	10.285	10.5591
553.46	10.1805	10.516
553.649	10.2229	10.4942
553.838	10.1599	10.467
554.027	10.1538	10.4839
554.216	10.1774	10.46
554.405	10.078	10.3658
554.593	10.0377	10.2684
554.782	10.0191	10.2356
554.971	9.94927	10.2317
555.16	9.95677	10.2121
555.348	9.87386	10.1235
555.537	9.88408	10.1385
555.726	9.90025	10.0894
555.914	9.75071	9.95893
556.103	9.80375	10.0304
556.291	9.67675	10.0298
556.48	9.69778	9.9712
556.668	9.62148	10.0036
556.857	9.68249	9.89524
557.045	9.58259	9.89686
557.234	9.51224	9.854
557.422	9.53623	9.7723
557.611	9.43596	9.83177
557.799	9.48095	9.68615
557.987	9.42041	9.74923
558.176	9.44883	9.75806
558.364	9.42248	9.66624
558.552	9.2873	9.55462
558.74	9.28292	9.64051
558.929	9.25726	9.5847
559.117	9.23111	9.55258
559.305	9.24137	9.58061
559.493	9.18015	9.43571
559.681	9.15453	9.44805
559.869	9.09789	9.40823
560.057	9.1301	9.44271
560.245	9.12553	9.37431
560.433	9.02372	9.35734
560.621	8.93582	9.28908
560.809	8.98715	9.25764
560.997	9.00812	9.22669
561.185	8.92463	9.20111
561.373	8.79734	9.13664
561.561	8.88736	9.1455
561.749	8.78539	9.09022
561.937	8.7476	9.10893
562.124	8.81481	9.07053
562.312	8.74709	9.03059
562.5	8.75676	9.04877
562.688	8.67434	9.00784
562.875	8.62803	8.95015
563.063	8.57484	8.94759
563.251	8.59531	8.92279
563.438	8.58964	8.86341
563.626	8.52352	8.77896
563.813	8.49759	8.83197
564.001	8.49815	8.83557
564.188	8.47285	8.78759
564.376	8.45616	8.70799
564.563	8.4139	8.70315
564.751	8.3639	8.68178
564.938	8.33495	8.71022
565.126	8.33586	8.66303
565.313	8.3448	8.63602
565.5	8.34611	8.65742
565.688	8.31876	8.60367
565.875	8.24627	8.59849
566.062	8.29256	8.52512
566.249	8.17187	8.5485
566.437	8.12683	8.54408
566.624	8.19423	8.44704
566.811	8.21116	8.42338
566.998	8.1695	8.45784
567.185	8.07231	8.34843
567.372	8.13068	8.39284
567.559	8.0485	8.36232
567.746	8.03614	8.41037
567.933	8.0444	8.31541
568.12	8.04364	8.30864
568.307	7.91278	8.28246
568.494	7.98119	8.2568
568.681	7.95804	8.22719
568.868	7.90395	8.21325
569.055	7.86191	8.21998
569.242	7.81586	8.18161
569.429	7.78488	8.16306
569.615	7.86402	8.09166
569.802	7.82714	8.06791
569.989	7.81515	8.12594
570.176	7.72584	8.04615
570.362	7.85591	8.01371
570.549	7.72753	7.93965
570.736	7.78092	8.04307
570.922	7.69624	7.95643
571.109	7.68828	7.95128
571.295	7.6525	7.94031
571.482	7.64484	7.98136
571.668	7.51411	7.91506
571.855	7.59342	7.87941
572.041	7.59071	7.87104
572.228	7.52647	7.85764
572.414	7.51715	7.81192
572.601	7.48805	7.87993
572.787	7.49788	7.84987
572.973	7.51243	7.86549
573.16	7.47104	7.78016
573.346	7.39209	7.77913
573.532	7.43074	7.71319
573.718	7.42723	7.79155
573.905	7.43663	7.77433
574.091	7.39176	7.6836
574.277	7.36388	7.67226
574.463	7.35929	7.66382
574.649	7.34744	7.63911
574.835	7.33052	7.63817
575.021	7.36794	7.64418
575.207	7.3201	7.59947
575.393	7.25146	7.5736
575.579	7.28347	7.60816
575.765	7.22176	7.52316
575.951	7.15011	7.51092
576.137	7.26599	7.50963
576.323	7.16826	7.53372
576.509	7.16327	7.48461
576.695	7.16132	7.52742
576.88	7.13906	7.41357
577.066	7.11391	7.39781
577.252	7.10584	7.38538
577.438	7.03699	7.40691
577.623	6.97889	7.38809
577.809	7.07208	7.38338
577.995	7.02231	7.35936
578.18	7.00919	7.29461
578.366	7.07906	7.3119
578.552	7.03713	7.33245
578.737	7.01037	7.2915
578.923	6.96888	7.20581
579.108	6.95383	7.29871
579.294	6.97846	7.21238
579.479	6.92703	7.24712
579.665	6.97077	7.22793
579.85	6.91351	7.17501
580.035	6.911	7.17743
580.221	6.92089	7.20821
580.406	6.87783	7.11689
580.591	6.87781	7.14787
580.777	6.8928	7.15649
580.962	6.82543	7.08145
581.147	6.93322	7.14147
581.332	6.82191	7.0968
581.517	6.81829	7.09737
581.703	6.77691	7.08751
581.888	6.76273	7.05936
582.073	6.79367	7.09059
582.258	6.78373	7.05011
582.443	6.76241	7.01903
582.628	6.74086	7.03715
582.813	6.75243	6.97237
582.998	6.78149	7.02422
583.183	6.73351	7.02051
583.368	6.67886	6.92949
583.553	6.69023	6.95834
583.738	6.75357	6.96124
583.923	6.63396	7.03111
584.107	6.66482	6.9692
584.292	6.64905	6.90536
584.477	6.68423	6.92153
584.662	6.58405	6.87841
584.846	6.67187	6.89486
585.031	6.54749	6.83388
585.216	6.62948	6.90218
585.4	6.57065	6.83454
585.585	6.53215	6.84195
585.77	6.49382	6.80681
585.954	6.49714	6.86471
586.139	6.52752	6.75048
586.323	6.5183	6.78899
586.508	6.43854	6.80986
586.692	6.48276	6.76064
586.877	6.51111	6.76295
587.061	6.43531	6.71077
587.246	6.36583	6.63265
587.43	6.42079	6.67612
587.614	6.4012	6.70399
587.799	6.45399	6.67308
587.983	6.33938	6.66925
588.167	6.40054	6.67474
588.351	6.3761	6.58857
588.536	6.39311	6.6787
588.72	6.38639	6.57122
588.904	6.36338	6.60464
589.088	6.27433	6.62564
589.272	6.34374	6.56009
589.456	6.33477	6.56572
589.641	6.3462	6.59757
589.825	6.27613	6.4732
590.009	6.26557	6.52515
590.193	6.28527	6.63961
590.377	6.24923	6.5394
590.561	6.21411	6.56254
590.745	6.23234	6.51698
590.928	6.22575	6.43009
591.112	6.29653	6.55194
591.296	6.19061	6.54595
591.48	6.18571	6.4281
591.664	6.18143	6.39976
591.848	6.18433	6.41873
592.031	6.21912	6.43926
592.215	6.19053	6.39527
592.399	6.14075	6.40262
592.582	6.14509	6.38884
592.766	6.08063	6.33468
592.95	6.14025	6.41648
593.133	6.09446	6.34618
593.317	6.15505	6.36916
593.5	6.09329	6.31366
593.684	6.08128	6.37782
593.867	6.10565	6.32718
594.051	6.0388	6.27431
594.234	6.05017	6.26298
594.418	6.03255	6.33972
594.601	6.03883	6.31349
594.785	6.00689	6.26198
594.968	5.97311	6.3127
595.151	5.97622	6.1823
595.334	5.99197	6.34629
595.518	6.00201	6.29729
595.701	6.02773	6.24001
595.884	5.97935	6.25306
596.067	5.90639	6.21812
596.251	5.99783	6.26687
596.434	5.9264	6.21126
596.617	5.89525	6.20023
596.8	5.95399	6.15394
596.983	5.87378	6.18166
597.166	5.91098	6.17198
597.349	5.83137	6.14447
597.532	5.8944	6.15986
597.715	5.89387	6.11743
597.898	5.86457	6.18877
598.081	5.80888	6.06211
598.264	5.77727	6.10681
598.447	5.84969	6.12504
598.63	5.81611	6.08951
598.812	5.78837	6.06495
598.995	5.76555	6.04585
599.178	5.8128	6.06539
599.361	5.76744	5.98833
599.543	5.85114	6.03133
599.726	5.71931	6.01951
599.909	5.76705	6.00016
600.091	5.66963	6.00619
600.274	5.71851	5.96698
600.457	5.72935	5.96325
600.639	5.72332	5.94936
600.822	5.6668	5.91583
601.004	5.64294	5.88968
601.187	5.70108	5.95213
601.369	5.68477	5.92336
601.552	5.70896	5.95738
601.734	5.64473	5.93475
601.917	5.66777	5.85962
602.099	5.63536	5.87982
602.281	5.55248	5.85452
602.464	5.62064	5.86097
602.646	5.54919	5.91388
602.828	5.65997	5.90059
603.01	5.53699	5.91537
603.193	5.63529	5.89549
603.375	5.58573	5.84845
603.557	5.58517	5.83874
603.739	5.48398	5.86415
603.921	5.54003	5.8253
604.103	5.57395	5.80256
604.285	5.49578	5.80165
604.467	5.49676	5.81439
604.65	5.50219	5.82887
604.832	5.48619	5.83219
605.013	5.50172	5.78698
605.195	5.456	5.75319
605.377	5.42349	5.74403
605.559	5.37628	5.74238
605.741	5.45548	5.71542
605.923	5.49161	5.71446
606.105	5.40543	5.70093
606.287	5.4593	5.72477
606.468	5.39342	5.72201
606.65	5.4212	5.69579
606.832	5.43116	5.66186
607.013	5.42606	5.74026
607.195	5.3899	5.63501
607.377	5.34718	5.57871
607.558	5.37589	5.69417
607.74	5.37328	5.64145
607.922	5.36622	5.63735
608.103	5.43639	5.61352
608.285	5.35104	5.61565
608.466	5.30578	5.60522
608.648	5.36012	5.67074
608.829	5.30552	5.58028
609.01	5.38818	5.63461
609.192	5.29777	5.6302
609.373	5.29631	5.57304
609.555	5.27376	5.5796
609.736	5.32173	5.6081
609.917	5.28346	5.56686
610.099	5.32258	5.6173
610.28	5.26068	5.65375
610.461	5.31361	5.54608
610.642	5.28395	5.57954
610.823	5.25286	5.54861
611.004	5.26167	5.57394
611.186	5.27558	5.56901
611.367	5.26435	5.54134
611.548	5.23964	5.51847
611.729	5.23399	5.54535
611.91	5.19464	5.55358
612.091	5.22617	5.56966
612.272	5.17167	5.53051
612.453	5.2052	5.50756
612.634	5.19943	5.52964
612.815	5.19369	5.4869
612.995	5.1901	5.48539
613.176	5.23542	5.49667
613.357	5.20809	5.53821
613.538	5.14255	5.48026
613.719	5.18969	5.46795
613.899	5.14531	5.45535
614.08	5.19607	5.47145
614.261	5.19089	5.53712
614.441	5.25487	5.47254
614.622	5.16044	5.4895
614.803	5.18239	5.42024
614.983	5.21776	5.43833
615.164	5.16207	5.46271
615.344	5.15745	5.48574
615.525	5.18164	5.43024
615.705	5.16678	5.46476
615.886	5.20598	5.4873
616.066	5.17096	5.43491
616.247	5.14516	5.48744
616.427	5.14869	5.44974
616.607	5.11915	5.45623
616.788	5.10793	5.46447
616.968	5.20333	5.46402
617.148	5.14934	5.45027
617.329	5.1348	5.40993
617.509	5.176	5.52306
617.689	5.19479	5.45961
617.869	5.15485	5.44745
618.049	5.16393	5.43219
618.23	5.14588	5.45282
618.41	5.17695	5.47031
618.59	5.15397	5.48572
618.77	5.17684	5.46439
618.95	5.11636	5.40492
619.13	5.08557	5.38268
619.31	5.12221	5.4674
619.49	5.11261	5.50603
619.67	5.15104	5.47271
619.85	5.20372	5.46175
620.03	5.12042	5.45582
620.209	5.17344	5.51625
620.389	5.23438	5.50479
620.569	5.20414	5.48003
620.749	5.1824	5.47082
620.929	5.16449	5.50458
621.108	5.15187	5.48449
621.288	5.17414	5.45956
621.468	5.20308	5.42492
621.647	5.23014	5.55588
621.827	5.25235	5.51923
622.007	5.21805	5.47114
622.186	5.19939	5.53724
622.366	5.2587	5.52413
622.545	5.2741	5.52483
622.725	5.28274	5.51341
622.904	5.25169	5.59681
623.084	5.26118	5.57847
623.263	5.27194	5.54826
623.443	5.28494	5.5531
623.622	5.31361	5.60375
623.802	5.33091	5.60116
623.981	5.2855	5.59303
624.16	5.31526	5.62709
624.339	5.33863	5.61565
624.519	5.30661	5.59866
624.698	5.3395	5.65649
624.877	5.2898	5.60182
625.056	5.31433	5.60674
625.235	5.33884	5.62957
625.415	5.37256	5.67086
625.594	5.39399	5.67769
625.773	5.42495	5.699
625.952	5.41469	5.68673
626.131	5.42066	5.65746
626.31	5.41889	5.7113
626.489	5.41537	5.68594
626.668	5.40292	5.73272
626.847	5.48856	5.69789
627.026	5.51938	5.78008
627.205	5.46824	5.7689
627.383	5.48598	5.80515
627.562	5.47022	5.71623
627.741	5.55031	5.79932
627.92	5.60705	5.84125
628.099	5.55675	5.81561
628.277	5.53469	5.78602
628.456	5.61401	5.83619
628.635	5.57857	5.82526
628.813	5.64732	5.86159
628.992	5.67734	5.94465
629.171	5.62603	5.90878
629.349	5.63493	5.87261
629.528	5.71859	5.98372
629.706	5.75278	5.87854
629.885	5.74204	5.94439
630.063	5.78468	6.02017
630.242	5.78096	6.02417
630.42	5.77609	6.04363
630.599	5.86454	6.08815
630.777	5.85811	6.09446
630.955	5.85989	6.04843
631.134	5.82911	6.08537
631.312	5.89513	6.21005
631.49	5.92015	6.16585
631.669	5.95131	6.19716
631.847	5.99965	6.2075
632.025	5.95552	6.18293
632.203	5.98468	6.2223
632.381	6.03978	6.24059
632.56	6.09617	6.25324
632.738	6.02439	6.35879
632.916	6.06513	6.29029
633.094	6.10301	6.33249
633.272	6.13684	6.35987
633.45	6.1743	6.35851
633.628	6.21389	6.44343
633.806	6.25347	6.45129
633.984	6.23773	6.44903
634.162	6.2453	6.4055
634.339	6.31197	6.54855
634.517	6.3218	6.59858
634.695	6.4167	6.4967
634.873	6.40723	6.57869
635.051	6.37434	6.56388
635.229	6.46918	6.64087
635.406	6.45712	6.6207
635.584	6.51629	6.72442
635.762	6.5017	6.65273
635.939	6.53168	6.70568
636.117	6.6178	6.76684
636.295	6.61071	6.80052
636.472	6.64842	6.89076
636.65	6.7459	6.88371
636.827	6.65507	6.87964
637.005	6.822	6.92698
637.182	6.82565	7.01193
637.36	6.90211	7.0848
637.537	6.84749	7.00222
637.715	6.87844	7.00417
637.892	6.92044	7.11105
638.069	6.98067	7.08985
638.247	7.03379	7.12225
638.424	7.11111	7.20651
638.601	7.07167	7.23122
638.778	7.21145	7.33826
638.956	7.17201	7.28093
639.133	7.22158	7.32317
639.31	7.29627	7.39513
639.487	7.27333	7.3686
639.664	7.37	7.50129
639.841	7.39215	7.51099
640.019	7.45541	7.50993
640.196	7.3616	7.53807
640.373	7.5575	7.64335
640.55	7.60599	7.65391
640.727	7.66322	7.67362
640.904	7.62413	7.6892
641.081	7.76643	7.79305
641.257	7.73822	7.83875
641.434	7.91753	7.88744
641.611	7.8294	7.86538
641.788	7.97986	7.9027
641.965	7.91957	7.98299
642.142	7.95602	7.98248
642.318	8.03981	8.01659
642.495	8.04004	8.03254
642.672	8.17985	8.15977
642.848	8.17851	8.11392
643.025	8.21565	8.17277
643.202	8.20511	8.26171
643.378	8.36356	8.33139
643.555	8.4339	8.31909
643.731	8.3831	8.45308
643.908	8.51445	8.53336
644.084	8.53047	8.52704
644.261	8.64048	8.53315
644.437	8.62628	8.55767
644.614	8.6793	8.60509
644.79	8.6946	8.62452
644.967	8.84044	8.67654
645.143	8.87362	8.79684
645.319	9.0263	8.90833
645.496	8.88144	8.9365
645.672	9.06004	8.95289
645.848	9.25554	9.02148
646.024	9.188	8.98424
646.201	9.30106	9.15559
646.377	9.28099	9.20117
646.553	9.36437	9.18676
646.729	9.37493	9.31466
646.905	9.54135	9.28843
647.081	9.54928	9.36794
647.257	9.71955	9.40389
647.433	9.70187	9.52308
647.609	9.81689	9.57035
647.785	9.83686	9.64404
647.961	9.96264	9.70578
648.137	10.012	9.69467
648.313	10.1134	9.86885
648.489	10.167	9.83889
648.665	10.0871	9.96249
648.841	10.1558	10.0232
649.016	10.3358	9.95097
649.192	10.3274	10.0678
649.368	10.475	10.3032
649.544	10.5316	10.1465
649.719	10.5467	10.1958
649.895	10.7792	10.3031
650.071	10.7346	10.3277
650.246	10.9211	10.4953
650.422	10.8111	10.5536
650.597	10.9155	10.7124
650.773	11.0605	10.707
650.949	11.096	10.676
651.124	11.1748	10.8176
651.3	11.2339	10.8455
651.475	11.3736	10.9525
651.65	11.3778	11.0335
651.826	11.4473	11.1207
652.001	11.535	11.1721
652.177	11.641	11.2416
652.352	11.8109	11.3285
652.527	11.8437	11.3248
652.702	12.0787	11.4859
652.878	11.982	11.456
653.053	12.0798	11.5984
653.228	12.0362	11.6446
653.403	12.1679	11.7035
653.578	12.3597	11.8316
653.754	12.3744	11.9264
653.929	12.4561	12.0599
654.104	12.6191	11.9281
654.279	12.6965	12.2062
654.454	12.7283	12.1673
654.629	12.8718	12.3263
654.804	12.8931	12.4548
654.979	13.1002	12.5509
655.154	13.1696	12.4749
655.329	13.1731	12.6016
655.503	13.3153	12.7061
655.678	13.4484	12.8804
655.853	13.3996	12.7123
656.028	13.4861	12.9781
656.203	13.7586	12.8739
656.377	13.8409	13.0968
656.552	13.9588	13.2911
656.727	14.0281	13.1493
656.902	14.1754	13.2719
657.076	14.1754	13.4556
657.251	14.2758	13.6001
657.425	14.395	13.628
657.6	14.4704	13.7029
657.775	14.6273	13.6719
657.949	14.6742	13.9164
658.124	14.767	13.917
658.298	14.959	13.9057
658.472	15.0178	14.0979
658.647	15.0373	14.1081
658.821	15.2276	14.3262
658.996	15.2736	14.4124
659.17	15.454	14.5977
659.344	15.5601	14.6375
659.519	15.6781	14.6486
659.693	15.7325	14.8724
659.867	15.9755	14.8598
660.041	16.0598	15.0237
660.216	16.1808	15.0152
660.39	16.2458	15.1941
660.564	16.3277	15.3113
660.738	16.5208	15.2791
660.912	16.4453	15.5855
661.086	16.636	15.6318
661.26	16.755	15.5978
661.434	17.0207	15.8849
661.608	17.0707	15.9268
661.782	17.0981	15.7857
661.956	17.3553	16.0152
662.13	17.3929	16.0857
662.304	17.4874	16.2256
662.478	17.5807	16.3372
662.652	17.614	16.6644
662.826	18.038	16.5648
662.999	17.9736	16.7745
663.173	18.1635	16.8091
663.347	18.2785	17.0061
663.521	18.3802	17.1014
663.694	18.4882	17.1625
663.868	18.6998	17.259
664.042	18.7845	17.467
664.215	18.8596	17.6415
664.389	19.1726	17.7778
664.562	19.1851	17.7593
664.736	19.1197	17.8056
664.909	19.4285	17.785
665.083	19.4874	18.1101
665.256	19.8384	18.2369
665.43	19.8313	18.4328
665.603	19.9947	18.5037
665.777	20.0942	18.6184
665.95	20.0944	18.6585
666.123	20.1949	18.7263
666.297	20.5169	18.9217
666.47	20.5769	19.0398
666.643	20.8715	19.0784
666.816	20.9489	19.3302
666.99	21.1177	19.4188
667.163	21.1685	19.3882
667.336	21.2825	19.5074
667.509	21.3803	19.9192
667.682	21.3757	19.7677
667.855	21.7505	19.9365
668.029	21.9101	20.1158
668.202	22.0162	20.147
668.375	22.0715	20.3863
668.548	22.3578	20.5542
668.721	22.417	20.4116
668.893	22.6291	20.6709
669.066	22.7773	20.9994
669.239	22.906	21.0334
669.412	22.9115	21.15
669.585	23.3065	21.3439
669.758	23.3952	21.4255
669.931	23.7358	21.6493
670.103	23.46	21.71
670.276	23.9463	21.83
670.449	24.0338	21.963
670.622	24.0489	22.303
670.794	24.3778	22.3354
670.967	24.6082	22.5649
671.139	24.4293	22.4491
671.312	24.6852	22.6023
671.485	24.9708	22.6468
671.657	25.0534	22.8819
671.83	25.24	23.0016
672.002	25.5292	23.2404
672.175	25.6237	23.4547
672.347	25.7352	23.397
672.519	25.9294	23.7697
672.692	26.1411	23.8103
672.864	26.3169	24.0778
673.037	26.2637	24.0774
673.209	26.6486	24.4151
673.381	26.6968	24.3036
673.553	26.937	24.5759
673.726	26.9802	24.7358
673.898	27.3221	24.8855
674.07	27.3723	25.115
674.242	27.7707	25.3961
674.414	27.8375	25.3259
674.587	27.9557	25.6086
674.759	28.1167	25.6345
674.931	28.3432	25.8316
675.103	28.4887	25.9497
675.275	28.6013	26.1159
675.447	28.9667	26.2917
675.619	29.1996	26.5439
675.791	29.3404	26.5212
675.963	29.5183	26.6484
676.134	29.7266	26.9077
676.306	29.6026	27.0332
676.478	30.0692	27.6267
676.65	30.155	27.4547
676.822	30.417	27.4309
676.994	30.2915	27.9278
677.165	30.6321	27.9724
677.337	31.0166	28.2609
677.509	31.2145	28.4338
677.68	31.3545	28.4634
677.852	31.6488	28.8114
678.024	31.5108	29.0078
678.195	31.9666	29.1129
678.367	32.1663	29.3005
678.538	32.1204	29.5505
678.71	32.4911	29.629
678.881	32.5746	29.7062
679.053	33.1066	29.9488
679.224	33.1043	30.0801
679.396	33.2145	30.4225
679.567	33.3316	30.41
679.738	33.3558	30.617
679.91	34.1535	31.0334
680.081	34.289	30.9299
680.252	34.0886	31.17
680.424	34.4724	31.3544
680.595	34.9933	31.4221
680.766	34.8239	31.7741
680.937	35.1954	31.9677
681.108	35.5069	32.0997
681.28	35.4456	32.4608
681.451	36.1153	32.7487
681.622	36.0819	32.8629
681.793	36.0745	32.9787
681.964	36.4709	33.2265
682.135	36.4981	33.3309
682.306	36.846	33.4555
682.477	36.8182	33.6066
682.648	37.2451	33.8329
682.819	37.3086	33.883
682.99	37.6508	34.1815
683.16	37.9646	34.3644
683.331	38.0297	34.7074
683.502	38.5078	34.7678
683.673	38.3066	35.0095
683.844	38.7349	35.4364
684.014	38.7846	35.558
684.185	39.2207	35.9969
684.356	39.5598	35.8758
684.526	39.7524	36.3796
684.697	40.2107	36.5756
684.868	40.1235	36.5746
685.038	40.4988	36.7127
685.209	40.4112	36.9956
685.379	40.7902	37.1919
685.55	41.2606	37.2532
685.72	41.2231	37.5657
685.891	41.5022	37.7473
686.061	41.5334	38.0214
686.232	41.9914	38.4953
686.402	42.1296	38.314
686.572	42.1224	38.5358
686.743	42.5232	39.1224
686.913	42.6801	38.8353
687.083	43.1994	39.2501
687.254	43.578	39.4752
687.424	43.6053	39.8419
687.594	44.1772	39.8919
687.764	43.931	40.2722
687.934	44.3761	40.5261
688.104	44.5153	40.6275
688.275	44.3165	40.2933
688.445	45.2701	41.1892
688.615	45.023	41.0692
688.785	45.4604	41.5805
688.955	45.2058	41.5279
689.125	45.7277	41.7742
689.295	45.9928	41.8717
689.465	46.174	42.3824
689.635	46.5058	42.579
689.805	46.9305	42.6245
689.974	47.2067	42.9661
690.144	47.2134	43.131
690.314	47.4461	43.6559
690.484	48.0396	43.8097
690.654	48.1183	43.8069
690.823	48.2943	44.1607
690.993	48.5287	44.5302
691.163	48.8561	44.7213
691.332	48.9004	44.487
691.502	48.8696	45.1573
691.672	49.4762	44.7022
691.841	49.5879	45.351
692.011	49.6538	45.3174
692.18	49.9837	45.3913
692.35	50.4179	46.1449
692.519	50.5031	46.1326
692.689	50.7714	46.3959
692.858	51.0528	46.6544
693.027	51.2244	47.0425
693.197	51.421	47.016
693.366	51.2906	47.3863
693.536	52.1884	47.7234
693.705	52.1654	47.6806
693.874	52.4084	48.3429
694.043	52.872	48.2785
694.213	52.8171	48.5159
694.382	53.3317	48.8738
694.551	53.4526	49.2152
694.72	53.7941	48.9268
694.889	54.4068	50.0307
695.058	54.3605	49.5455
695.228	54.7453	50.072
695.397	54.8389	50.4601
695.566	54.9307	50.3212
695.735	55.367	51.0113
695.904	55.5097	51.0731
696.073	55.7342	51.1983
696.242	55.7595	51.345
696.41	56.3807	51.4722
696.579	56.4034	52.1176
696.748	56.8495	52.2982
696.917	57.0501	52.6529
697.086	57.0068	52.9496
697.255	57.7956	53.2463
697.423	57.4786	53.0452
697.592	58.1211	53.1
697.761	58.4762	53.5265
697.929	58.4825	54.0287
698.098	58.4625	54.3412
698.267	59.6089	54.8227
698.435	59.2628	54.3172
698.604	59.4816	54.6409
698.772	59.846	54.8087
698.941	60.6752	55.0962
699.109	60.8232	55.7457
699.278	60.364	55.4079
699.446	60.2892	56.1602
699.615	60.4126	56.3554
699.783	60.8181	56.5898
699.952	61.3285	56.9665
700.12	61.4542	56.6747
700.288	62.0246	57.3185
700.457	62.2573	57.7103
700.625	62.839	57.5968
700.793	62.7025	58.0458
700.961	62.835	57.763
701.13	63.2588	57.964
701.298	62.9469	58.5658
701.466	63.8208	58.6961
701.634	64.0542	59.0721
701.802	64.1758	59.1351
701.97	64.0623	59.7218
702.138	64.7931	59.9842
702.306	64.3549	59.9882
702.474	65.4012	60.0874
702.642	64.807	60.3218
702.81	64.7678	60.7376
702.978	65.4128	61.0137
703.146	65.8926	61.1935
703.314	65.8413	61.6156
703.482	66.5759	61.369
703.65	66.8049	62.1567
703.818	67.2978	62.6478
703.985	67.3058	62.2836
704.153	67.344	62.1919
704.321	68.0337	62.8028
704.488	67.7977	63.0657
704.656	67.8533	62.9939
704.824	68.0956	63.1178
704.991	68.0898	63.9044
705.159	68.378	64.2275
705.327	69.2781	63.9336
705.494	69.2737	64.1859
705.662	69.4045	64.3225
705.829	69.6585	65.1236
705.997	70.3817	65.5096
706.164	69.9923	64.9146
706.332	70.211	65.3856
706.499	70.5917	66.2725
706.666	70.136	66.0537
706.834	70.6956	65.7336
707.001	71.1868	66.4077
707.168	71.6001	66.8515
707.336	72.104	66.8659
707.503	71.8465	66.3074
707.67	72.4581	67.4128
707.837	72.666	67.685
708.004	72.4169	67.1839
708.172	72.8957	68.0031
708.339	72.1022	68.6603
708.506	73.1793	68.2037
708.673	74.402	68.5796
708.84	73.0205	68.3349
709.007	74.3683	68.9793
709.174	73.7771	69.0175
709.341	73.2844	68.1223
709.508	74.5237	69.2577
709.675	74.7926	69.6729
709.842	74.1431	68.6841
710.009	75.7752	70.5195
710.175	75.0977	70.7298
710.342	74.8537	70.4172
710.509	75.8593	71.2548
710.676	75.6163	70.5411
710.843	76.7605	71.8899
711.009	77.142	71.9185
711.176	77.0483	72.3127
711.343	76.5619	72.4204
711.509	76.5176	72.0029
711.676	77.2599	72.5624
711.843	76.6705	71.7652
712.009	77.2651	71.6594
712.176	76.9737	72.6679
712.342	77.4271	73.3629
712.509	78.9757	73.0448
712.675	78.941	73.2395
712.842	78.7005	74.1847
713.008	79.0048	74.9604
713.174	79.3896	74.022
713.341	78.898	73.6876
713.507	79.0836	73.6279
713.673	78.7896	74.9669
713.84	79.8138	75.521
714.006	80.1287	75.2188
714.172	80.4993	75.6763
714.339	80.111	75.3141
714.505	80.1939	75.3101
714.671	80.7844	75.8427
714.837	79.8609	75.603
715.003	80.1985	75.5451
715.169	80.4024	75.6731
715.335	80.153	75.6512
715.501	81.802	75.801
715.667	81.4238	76.1761
715.833	81.1961	76.0152
715.999	82.2494	77.6744
716.165	82.0864	77.5155
716.331	82.4116	77.5357
716.497	83.012	77.0082
716.663	82.2074	77.9218
716.829	81.8456	76.676
716.995	83.3327	79.4586
717.161	83.6843	77.8543
717.326	82.5551	78.1497
717.492	84.3692	79.5311
717.658	83.9123	78.6883
717.823	83.4484	78.1896
717.989	84.7691	78.9827
718.155	84.7082	80.8315
718.32	84.5048	79.6379
718.486	83.4886	80.4354
718.651	83.6859	78.4268
718.817	85.623	80.703
718.983	86.6231	81.2276
719.148	84.1875	79.1978
719.314	85.0509	81.0516
719.479	85.0544	81.0331
719.644	86.5472	80.9335
719.81	86.1707	81.3423
719.975	84.9205	79.5834
720.141	84.302	80.8365
720.306	86.0149	81.2433
720.471	85.8912	81.0045
720.636	86.9367	82.0198
720.802	86.4822	80.3227
720.967	85.4177	81.1117
721.132	85.4761	81.131
721.297	86.7702	82.1997
721.462	86.8295	82.8973
721.628	86.2452	81.951
721.793	86.4936	80.8134
721.958	88.7628	82.3621
722.123	84.5948	81.5954
722.288	89.8444	84.1286
722.453	87.6619	83.9188
722.618	88.9044	82.9732
722.783	87.9691	82.9112
722.948	88.568	83.2499
723.112	89.3287	84.0581
723.277	88.2115	83.7269
723.442	89.3122	85.2877
723.607	90.607	85.6171
723.772	87.463	83.6322
723.937	88.7343	84.1931
724.101	91.6855	86.2139
724.266	90.5452	84.2966
724.431	89.0425	85.8168
724.595	91.5826	85.967
724.76	89.1462	84.4647
724.925	90.0581	85.212
725.089	90.3855	86.0344
725.254	89.2389	84.4897
725.418	91.0522	86.782
725.583	88.9403	83.4351
725.747	91.4655	84.914
725.912	90.1379	86.36
726.076	92.0064	85.3563
726.241	90.4246	85.664
726.405	91.726	84.7926
726.57	92.4392	87.7065
726.734	91.0496	85.7368
726.898	93.5126	88.1358
727.062	92.5313	85.8962
727.227	92.6773	88.3555
727.391	93.1816	88.9019
727.555	88.8182	86.0636
727.719	90.1793	88.2807
727.884	91.6186	86.2741
728.048	92.555	88.9177
728.212	94.0667	89.8103
728.376	93.074	91.2359
728.54	92.1717	88.296
728.704	93.5798	90.2285
728.868	92.287	86.7703
729.032	91.4479	86.8865
729.196	92.3946	88.1898
729.36	94.9434	88.7594
729.524	96.773	89.6263
729.688	94.7395	90.5211
729.852	92.8838	88.0834
730.015	94.0199	90.2893
730.179	92.6445	90.3485
730.343	97.3812	89.0581
730.507	94.8249	87.7553
730.671	96.3996	89.3995
730.834	95.0063	91.2892
730.998	95.5969	90.1257
731.162	92.925	90.9094
731.325	95.3743	91.8872
731.489	94.5557	88.8497
731.652	95.2582	87.1452
731.816	98.6466	93.3971
731.98	97.1185	94.0901
732.143	96.9188	93.5894
732.307	96.5846	91.5812
732.47	95.3575	91.5596
732.633	97.2155	92.8696
732.797	98.4102	92.9237
732.96	97.6255	90.9794
733.124	92.6064	90.0034
733.287	99.0473	94.5246
733.45	98.9784	96.1778
733.614	98.3715	91.3104
733.777	95.9362	91.4673
733.94	98.1329	90.6063
734.103	98.4562	93.569
734.266	97.4811	94.5735
734.43	96.503	91.8684
734.593	99.5485	97.7962
734.756	97.0733	95.4028
734.919	100.07	93.8678
735.082	100.739	97.1432
735.245	97.7925	92.2907
735.408	96.6918	94.6116
735.571	100.418	98.1412
735.734	96.1012	96.0666
735.897	99.9028	96.8466
736.06	99.4465	94.9979
736.223	99.4196	95.5858
736.386	102.487	97.7333
736.549	102.804	96.763
736.711	99.459	97.9132
736.874	100.21	96.1217
737.037	100.307	95.3706
737.2	103.394	98.72
737.362	103.066	97.8789
737.525	103.583	97.546
737.688	100.452	98.9459
737.85	101.789	99.5711
738.013	95.9839	93.7745
738.176	100.72	97.9471
738.338	101.416	97.2711
738.501	107.134	103.359
738.663	105.559	100.281
738.826	104.846	97.8754
738.988	100.896	98.4531
739.151	103.084	97.9441
739.313	102.782	99.2116
739.475	100.026	100.662
739.638	98.9989	95.981
739.8	104.769	97.8433
739.962	105.453	101.144
740.125	102.308	99.959
740.287	102.086	96.9817
740.449	104.666	98.3869
740.611	107.998	104.739
740.774	106.654	99.6821
740.936	107.418	100.999
741.098	104.152	99.8896
741.26	104.283	102.147
741.422	105.237	99.8628
741.584	103.619	100.584
741.746	106.994	103.505
741.908	104.084	99.0463
742.07	104.561	103.244
742.232	104.228	103.319
742.394	104.24	100.389
742.556	105.898	105.59
742.718	105.575	100.683
742.88	109.026	104.073
743.042	104.86	100.27
743.203	106.034	104.018
743.365	110.48	100.58
743.527	106.982	104.802
743.689	107.686	104.171
743.85	112.953	110.931
744.012	104.973	104.422
744.174	108.269	103.533
744.335	105.16	103.676
744.497	108.012	105.699
744.658	108.152	107.062
744.82	109.527	101.857
744.982	107.766	103.309
745.143	107.841	104.604
745.305	109.038	106.235
745.466	112.231	106.897
745.627	110.574	109.954
745.789	110.453	104.205
745.95	109.698	106.061
746.112	109.416	106.356
746.273	112.323	106.842
746.434	101.751	99.4461
746.596	108.398	100.2
746.757	109.695	104.872
746.918	111.02	105.954
747.079	111.758	106.735
747.24	112.994	106.006
747.402	108.502	105.798
747.563	115.318	113.849
747.724	113.808	109.567
747.885	110.144	107.529
748.046	112.865	108.821
748.207	113.337	110.221
748.368	114.382	111.341
748.529	114.991	108.908
748.69	111.677	107.476
748.851	109.445	106.931
749.012	114.441	108.458
749.173	109.949	105.474
749.334	110.19	107.409
749.494	108.534	106.4
749.655	111.683	109.526
749.816	110.651	106.381
749.977	110.812	109.056
750.137	115.5	108.795
750.298	114.041	109.772
750.459	112.851	113.117
750.62	111.603	107.447
750.78	113.724	105.221
750.941	113.8	107.543
751.101	118.467	112.519
751.262	115.998	109.508
751.422	112.719	109.273
751.583	118.274	110.543
751.743	114.785	109.116
751.904	119.307	115.17
752.064	116.405	111.502
752.225	116.103	112.497
752.385	118.351	116.345
752.545	115.302	108.897
752.706	114.712	112.344
752.866	116.006	109.093
753.026	114.865	111.56
753.187	116.155	112.267
753.347	113.541	106.289
753.507	120.34	112.315
753.667	116.01	108.45
753.827	116.999	113.18
753.988	119.313	112.983
754.148	116.078	111.643
754.308	119.056	116.023
754.468	114.592	114.256
754.628	116.282	112.538
754.788	115.672	111.451
754.948	119.483	118.532
755.108	116.161	115.125
755.268	120.687	115.41
755.428	119.388	112.961
755.587	119.74	113.848
755.747	124.872	120.018
755.907	120.901	116.125
756.067	120.58	118.427
756.227	124.464	115.741
756.386	116.327	111.908
756.546	123.215	118.701
756.706	121.368	117.172
756.866	118.015	113.075
757.025	120.46	115.081
757.185	121.027	114.225
757.344	118.317	115.463
757.504	121.84	115.3
757.664	120.429	115.746
757.823	118.917	114.923
757.983	124.244	118.342
758.142	120.645	118.673
758.302	118.439	113.994
758.461	121.489	118.864
758.62	121.409	114
758.78	124.975	118.192
758.939	119.197	114.738
759.098	129.456	123.346
759.258	120.392	120.73
759.417	118.558	115.084
759.576	120.545	118.403
759.735	125.998	120.226
759.895	124.413	121.715
760.054	123.749	119.139
760.213	121.752	117.88
760.372	126.235	119.364
760.531	122.842	119.467
760.69	120.161	115.355
760.849	125.545	123.143
761.008	122.897	116.949
761.167	126.077	117.611
761.326	119.796	117.985
761.485	119.42	118.814
761.644	127.64	119.719
761.803	122.361	115.615
761.962	122.382	120.042
762.121	123.023	121.243
762.28	125.066	121.64
762.439	127.036	123.653
762.597	123.007	120.555
762.756	127.253	120.97
762.915	122.216	119.776
763.073	124.964	127.235
763.232	124.308	120.891
763.391	124.391	124.256
763.549	126.212	123.47
763.708	124.759	120.771
763.867	125.513	123.069
764.025	121.357	119.952
764.184	0	0
764.342	122.403	124.468
764.501	0	0
764.659	122.52	120.736
764.818	0	0
764.976	123.691	117.386
765.134	0	0
765.293	0	0
765.451	0	0
765.609	0	0
765.768	0	0
765.926	0	0
766.084	0	0
766.242	0	0
766.4	0	0
766.559	0	0
766.717	0	0
766.875	0	0
767.033	0	0
767.191	0	0
767.349	0	0
767.507	0	0
767.665	0	0
767.823	0	0
767.981	0	0
768.139	0	0
768.297	0	0
768.454	0	0
768.612	0	0
768.77	0	0
768.928	0	0
769.086	0	0
769.243	0	0
769.401	0	0
769.559	0	0
769.716	0	0
769.874	0	0
770.031	0	0
770.189	0	0
770.347	0	0
770.504	0	0
770.662	0	0
770.819	0	0
770.977	0	0
771.134	0	0
771.291	0	0
771.449	0	0
771.606	0	0
771.763	0	0
771.921	0	0
772.078	0	0
772.235	0	0
772.393	0	0
772.55	0	0
772.707	0	0
772.864	0	0
773.021	0	0
773.178	0	0
773.335	0	0
773.492	0	0
773.649	0	0
773.806	0	0
773.963	0	0
774.12	0	0
774.277	0	0
774.434	0	0
774.591	0	0
774.748	0	0
774.905	0	0
775.061	0	0
775.218	0	0
775.375	0	0
775.532	0	0
775.688	0	0
775.845	0	0
776.002	0	0
776.158	0	0
776.315	0	0
776.471	0	0
776.628	0	0
776.784	0	0
776.941	0	0
777.097	0	0
777.254	0	0
777.41	0	0
777.567	0	0
777.723	0	0
777.879	0	0
778.036	0	0
778.192	0	0
778.348	0	0
778.505	0	0
778.661	0	0
778.817	0	0
778.973	0	0
779.129	0	0
779.285	0	0
779.442	0	0
779.598	0	0
779.754	0	0
779.91	0	0
780.066	0	0
780.222	0	0
780.378	0	0
780.533	0	0
780.689	0	0
780.845	0	0
781.001	0	0
781.157	0	0
781.313	0	0
781.468	0	0
781.624	0	0
781.78	0	0
781.936	0	0
782.091	0	0
782.247	0	0
782.403	0	0
782.558	0	0
782.714	0	0
782.869	0	0
783.025	0	0
783.18	0	0
783.336	0	0
783.491	0	0
783.647	0	0
783.802	0	0
783.957	0	0
784.113	0	0
784.268	0	0
784.423	0	0
784.578	0	0
784.734	0	0
784.889	0	0
785.044	0	0
785.199	0	0
785.354	0	0
785.51	0	0
785.665	0	0
785.82	0	0
785.975	0	0
786.13	0	0
786.285	0	0
786.44	0	0
786.595	0	0
786.75	0	0
786.905	0	0
787.059	0	0
787.214	0	0
787.369	0	0
787.524	0	0
787.679	0	0
787.833	0	0
787.988	0	0
788.143	0	0
788.297	0	0
788.452	0	0
788.607	0	0
788.761	0	0
788.916	0	0
789.07	0	0
789.225	0	0
789.379	0	0
789.534	0	0
789.688	0	0
789.843	0	0
789.997	0	0
790.151	0	0
790.306	0	0
790.46	0	0
790.614	0	0
790.769	0	0
790.923	0	0
791.077	0	0
791.231	0	0
791.385	0	0
791.54	0	0
791.694	0	0
791.848	0	0
792.002	0	0
792.156	0	0
792.31	0	0
792.464	0	0
792.618	0	0
792.772	0	0
792.926	0	0
793.08	0	0
793.233	0	0
793.387	0	0
793.541	0	0
793.695	0	0
793.849	0	0
794.002	0	0
794.156	0	0
794.31	0	0
794.463	0	0
794.617	0	0
794.771	0	0
794.924	0	0
795.078	0	0
795.231	0	0
795.385	0	0
795.538	0	0
795.692	0	0
795.845	0	0
795.999	0	0
796.152	0	0
796.305	0	0
796.459	0	0
796.612	0	0
796.765	0	0
796.919	0	0
797.072	0	0
797.225	0	0
797.378	0	0
797.531	0	0
797.685	0	0
797.838	0	0
797.991	0	0
798.144	0	0
798.297	0	0
798.45	0	0
798.603	0	0
798.756	0	0
798.909	0	0
799.062	0	0
799.214	0	0
799.367	0	0
799.52	0	0
799.673	0	0
799.826	0	0
799.979	0	0
800.131	0	0
800.284	0	0
800.437	0	0
800.589	0	0
800.742	0	0
800.895	0	0
801.047	0	0
801.2	0	0
801.352	0	0
801.505	0	0
801.657	0	0
801.81	0	0
801.962	0	0
802.115	0	0
802.267	0	0
802.419	0	0
802.572	0	0
802.724	0	0
802.876	0	0
803.028	0	0
803.181	0	0
803.333	0	0
803.485	0	0
803.637	0	0
803.789	0	0
803.941	0	0
804.094	0	0
804.246	0	0
804.398	0	0
804.55	0	0
804.702	0	0
804.854	0	0
805.005	0	0
805.157	0	0
805.309	0	0
805.461	0	0
805.613	0	0
805.765	0	0
805.917	0	0
806.068	0	0
806.22	0	0
806.372	0	0
806.523	0	0
806.675	0	0
806.827	0	0
806.978	0	0
807.13	0	0
807.281	0	0
807.433	0	0
807.584	0	0
807.736	0	0
807.887	0	0
808.039	0	0
808.19	0	0
808.342	0	0
808.493	0	0
808.644	0	0
808.796	0	0
808.947	0	0
809.098	0	0
809.249	0	0
